date	time	group	subject	build	blocknum	trialnum	blockcode	trialcode	pretrialpause	posttrialpause	windowcenter	trialduration	trialtimeout	blocktimeout	response	correct	latency	inwindow	stimulusnumber1	stimulusitem1	stimulusvpos1	stimulushpos1	stimulusonset1	stimulusnumber2	stimulusitem2	stimulusvpos2	stimulushpos2	stimulusonset2	stimulusnumber3	stimulusitem3	stimulusvpos3	stimulushpos3	stimulusonset3	stimulusnumber4	stimulusitem4	stimulusvpos4	stimulushpos4	stimulusonset4
122416	09:48:42	1	1	4.0.9.0	2	1	picblk	6	100	0	0	0	0	0	lbuttondown	1	2089	0	1	same.jpg	25	25	2	1	pic6.jpg	75	25	2	1	same.jpg	25	75	2	1	same.jpg	75	75	2
122416	09:48:42	1	1	4.0.9.0	2	2	picblk	12	100	0	0	0	0	0	lbuttondown	1	1093	0	1	same.jpg	25	25	5	1	same.jpg	75	25	5	1	same.jpg	25	75	5	1	pic12.jpg	75	75	5
122416	09:48:42	1	1	4.0.9.0	2	3	picblk	11	100	0	0	0	0	0	lbuttondown	1	1131	0	1	same.jpg	25	25	3	1	same.jpg	75	25	3	1	pic11.jpg	25	75	3	1	same.jpg	75	75	3
122416	09:48:42	1	1	4.0.9.0	2	4	picblk	1	0	0	0	0	0	0	lbuttondown	1	1348	0	1	pic1.jpg	25	25	3	1	same.jpg	75	25	3	1	same.jpg	25	75	3	1	same.jpg	75	75	3
122416	09:48:42	1	1	4.0.9.0	2	5	picblk	6	100	0	0	0	0	0	lbuttondown	1	1577	0	1	same.jpg	25	25	3	1	pic6.jpg	75	25	3	1	same.jpg	25	75	3	1	same.jpg	75	75	3
122416	09:48:42	1	1	4.0.9.0	2	6	picblk	12	100	0	0	0	0	0	lbuttondown	1	1452	0	1	same.jpg	25	25	3	1	same.jpg	75	25	3	1	same.jpg	25	75	3	1	pic12.jpg	75	75	3
122416	09:48:42	1	1	4.0.9.0	2	7	picblk	5	0	0	0	0	0	0	lbuttondown	1	1462	0	1	pic5.jpg	25	25	3	1	same.jpg	75	25	3	1	same.jpg	25	75	3	1	same.jpg	75	75	3
122416	09:48:42	1	1	4.0.9.0	2	8	picblk	15	100	0	0	0	0	0	lbuttondown	1	1502	0	1	same.jpg	25	25	3	1	same.jpg	75	25	3	1	pic15.jpg	25	75	3	1	same.jpg	75	75	3
122416	09:48:42	1	1	4.0.9.0	2	9	picblk	10	100	0	0	0	0	0	lbuttondown	1	1152	0	1	same.jpg	25	25	3	1	pic10.jpg	75	25	3	1	same.jpg	25	75	3	1	same.jpg	75	75	3
122416	09:48:42	1	1	4.0.9.0	2	10	picblk	2	100	0	0	0	0	0	lbuttondown	1	1281	0	1	same.jpg	25	25	3	1	pic2.jpg	75	25	3	1	same.jpg	25	75	3	1	same.jpg	75	75	3
122416	09:48:42	1	1	4.0.9.0	2	11	picblk	14	100	0	0	0	0	0	lbuttondown	1	903	0	1	same.jpg	25	25	3	1	pic14.jpg	75	25	3	1	same.jpg	25	75	3	1	same.jpg	75	75	3
122416	09:48:42	1	1	4.0.9.0	2	12	picblk	1	0	0	0	0	0	0	lbuttondown	0	538	0	1	pic1.jpg	25	25	3	1	same.jpg	75	25	3	1	same.jpg	25	75	3	1	same.jpg	75	75	3
122416	09:48:42	1	1	4.0.9.0	2	13	picblk	4	100	0	0	0	0	0	lbuttondown	1	1806	0	1	same.jpg	25	25	3	1	same.jpg	75	25	3	1	same.jpg	25	75	3	1	pic4.jpg	75	75	3
122416	09:48:42	1	1	4.0.9.0	2	14	picblk	10	100	0	0	0	0	0	lbuttondown	1	1470	0	1	same.jpg	25	25	3	1	pic10.jpg	75	25	3	1	same.jpg	25	75	3	1	same.jpg	75	75	3
122416	09:48:42	1	1	4.0.9.0	2	15	picblk	4	100	0	0	0	0	0	lbuttondown	1	1168	0	1	same.jpg	25	25	3	1	same.jpg	75	25	3	1	same.jpg	25	75	3	1	pic4.jpg	75	75	3
122416	09:48:42	1	1	4.0.9.0	2	16	picblk	13	0	0	0	0	0	0	lbuttondown	1	1258	0	1	pic13.jpg	25	25	3	1	same.jpg	75	25	3	1	same.jpg	25	75	3	1	same.jpg	75	75	3
122416	09:50:06	1	1	4.0.9.0	2	1	picblk	5	0	0	0	0	0	0	lbuttondown	1	1658	0	1	pic5.jpg	25	25	1	1	same.jpg	75	25	1	1	same.jpg	25	75	1	1	same.jpg	75	75	1
122416	09:50:06	1	1	4.0.9.0	2	2	picblk	14	100	0	0	0	0	0	lbuttondown	1	1146	0	1	same.jpg	25	25	5	1	pic14.jpg	75	25	5	1	same.jpg	25	75	5	1	same.jpg	75	75	5
122416	09:50:06	1	1	4.0.9.0	2	3	picblk	1	0	0	0	0	0	0	lbuttondown	1	1087	0	1	pic1.jpg	25	25	4	1	same.jpg	75	25	4	1	same.jpg	25	75	4	1	same.jpg	75	75	4
122416	09:50:06	1	1	4.0.9.0	2	4	picblk	10	100	0	0	0	0	0	lbuttondown	1	963	0	1	same.jpg	25	25	3	1	pic10.jpg	75	25	3	1	same.jpg	25	75	3	1	same.jpg	75	75	3
122416	09:50:06	1	1	4.0.9.0	2	5	picblk	9	0	0	0	0	0	0	lbuttondown	1	1446	0	1	pic9.jpg	25	25	4	1	same.jpg	75	25	4	1	same.jpg	25	75	4	1	same.jpg	75	75	4
122416	09:50:06	1	1	4.0.9.0	2	6	picblk	12	100	0	0	0	0	0	lbuttondown	1	1325	0	1	same.jpg	25	25	3	1	same.jpg	75	25	3	1	same.jpg	25	75	3	1	pic12.jpg	75	75	3
122416	09:50:06	1	1	4.0.9.0	2	7	picblk	11	100	0	0	0	0	0	lbuttondown	1	1146	0	1	same.jpg	25	25	3	1	same.jpg	75	25	3	1	pic11.jpg	25	75	3	1	same.jpg	75	75	3
122416	09:50:06	1	1	4.0.9.0	2	8	picblk	13	0	0	0	0	0	0	lbuttondown	1	1167	0	1	pic13.jpg	25	25	4	1	same.jpg	75	25	4	1	same.jpg	25	75	4	1	same.jpg	75	75	4
122416	09:50:06	1	1	4.0.9.0	2	9	picblk	6	100	0	0	0	0	0	lbuttondown	1	1412	0	1	same.jpg	25	25	3	1	pic6.jpg	75	25	3	1	same.jpg	25	75	3	1	same.jpg	75	75	3
122416	09:50:06	1	1	4.0.9.0	2	10	picblk	5	0	0	0	0	0	0	lbuttondown	1	1068	0	1	pic5.jpg	25	25	3	1	same.jpg	75	25	3	1	same.jpg	25	75	3	1	same.jpg	75	75	3
122416	09:50:06	1	1	4.0.9.0	2	11	picblk	3	100	0	0	0	0	0	lbuttondown	1	1459	0	1	same.jpg	25	25	3	1	same.jpg	75	25	3	1	pic3.jpg	25	75	3	1	same.jpg	75	75	3
122416	09:50:06	1	1	4.0.9.0	2	12	picblk	11	100	0	0	0	0	0	lbuttondown	1	1121	0	1	same.jpg	25	25	3	1	same.jpg	75	25	3	1	pic11.jpg	25	75	3	1	same.jpg	75	75	3
122416	09:50:06	1	1	4.0.9.0	2	13	picblk	7	100	0	0	0	0	0	lbuttondown	1	849	0	1	same.jpg	25	25	3	1	same.jpg	75	25	3	1	pic7.jpg	25	75	3	1	same.jpg	75	75	3
122416	09:50:06	1	1	4.0.9.0	2	14	picblk	13	0	0	0	0	0	0	lbuttondown	1	1128	0	1	pic13.jpg	25	25	3	1	same.jpg	75	25	3	1	same.jpg	25	75	3	1	same.jpg	75	75	3
122416	09:50:06	1	1	4.0.9.0	2	15	picblk	12	100	0	0	0	0	0	lbuttondown	1	9245	0	1	same.jpg	25	25	3	1	same.jpg	75	25	3	1	same.jpg	25	75	3	1	pic12.jpg	75	75	3
122416	09:50:06	1	1	4.0.9.0	2	16	picblk	8	100	0	0	0	0	0	lbuttondown	1	948	0	1	same.jpg	25	25	3	1	same.jpg	75	25	3	1	same.jpg	25	75	3	1	pic8.jpg	75	75	3
122416	09:50:06	1	1	4.0.9.0	2	17	picblk	15	100	0	0	0	0	0	lbuttondown	1	1043	0	1	same.jpg	25	25	3	1	same.jpg	75	25	3	1	pic15.jpg	25	75	3	1	same.jpg	75	75	3
122416	09:50:06	1	1	4.0.9.0	2	18	picblk	11	100	0	0	0	0	0	lbuttondown	1	865	0	1	same.jpg	25	25	4	1	same.jpg	75	25	4	1	pic11.jpg	25	75	4	1	same.jpg	75	75	4
122416	09:50:06	1	1	4.0.9.0	2	19	picblk	3	100	0	0	0	0	0	lbuttondown	1	1007	0	1	same.jpg	25	25	3	1	same.jpg	75	25	3	1	pic3.jpg	25	75	3	1	same.jpg	75	75	3
122416	09:50:06	1	1	4.0.9.0	2	20	picblk	1	0	0	0	0	0	0	lbuttondown	1	1398	0	1	pic1.jpg	25	25	3	1	same.jpg	75	25	3	1	same.jpg	25	75	3	1	same.jpg	75	75	3
122416	09:50:06	1	1	4.0.9.0	2	21	picblk	2	100	0	0	0	0	0	lbuttondown	1	1330	0	1	same.jpg	25	25	4	1	pic2.jpg	75	25	4	1	same.jpg	25	75	4	1	same.jpg	75	75	4
122416	09:50:06	1	1	4.0.9.0	2	22	picblk	15	100	0	0	0	0	0	lbuttondown	1	1297	0	1	same.jpg	25	25	3	1	same.jpg	75	25	3	1	pic15.jpg	25	75	3	1	same.jpg	75	75	3
122416	09:50:06	1	1	4.0.9.0	2	23	picblk	6	100	0	0	0	0	0	lbuttondown	1	1187	0	1	same.jpg	25	25	3	1	pic6.jpg	75	25	3	1	same.jpg	25	75	3	1	same.jpg	75	75	3
122416	09:50:06	1	1	4.0.9.0	2	24	picblk	4	100	0	0	0	0	0	lbuttondown	1	1493	0	1	same.jpg	25	25	3	1	same.jpg	75	25	3	1	same.jpg	25	75	3	1	pic4.jpg	75	75	3
122416	09:50:06	1	1	4.0.9.0	2	25	picblk	7	100	0	0	0	0	0	lbuttondown	1	1152	0	1	same.jpg	25	25	4	1	same.jpg	75	25	4	1	pic7.jpg	25	75	4	1	same.jpg	75	75	4
122416	09:50:06	1	1	4.0.9.0	2	26	picblk	4	100	0	0	0	0	0	lbuttondown	1	1179	0	1	same.jpg	25	25	3	1	same.jpg	75	25	3	1	same.jpg	25	75	3	1	pic4.jpg	75	75	3
122416	09:50:06	1	1	4.0.9.0	2	27	picblk	14	100	0	0	0	0	0	lbuttondown	1	1781	0	1	same.jpg	25	25	3	1	pic14.jpg	75	25	3	1	same.jpg	25	75	3	1	same.jpg	75	75	3
122416	09:50:06	1	1	4.0.9.0	2	28	picblk	2	100	0	0	0	0	0	lbuttondown	1	1217	0	1	same.jpg	25	25	4	1	pic2.jpg	75	25	4	1	same.jpg	25	75	4	1	same.jpg	75	75	4
122416	09:50:06	1	1	4.0.9.0	2	29	picblk	8	100	0	0	0	0	0	lbuttondown	1	1564	0	1	same.jpg	25	25	3	1	same.jpg	75	25	3	1	same.jpg	25	75	3	1	pic8.jpg	75	75	3
122416	09:50:06	1	1	4.0.9.0	2	30	picblk	1	0	0	0	0	0	0	lbuttondown	1	1358	0	1	pic1.jpg	25	25	3	1	same.jpg	75	25	3	1	same.jpg	25	75	3	1	same.jpg	75	75	3
122416	09:50:06	1	1	4.0.9.0	2	31	picblk	3	100	0	0	0	0	0	lbuttondown	1	1042	0	1	same.jpg	25	25	4	1	same.jpg	75	25	4	1	pic3.jpg	25	75	4	1	same.jpg	75	75	4
122416	09:50:06	1	1	4.0.9.0	2	32	picblk	15	100	0	0	0	0	0	lbuttondown	1	1217	0	1	same.jpg	25	25	3	1	same.jpg	75	25	3	1	pic15.jpg	25	75	3	1	same.jpg	75	75	3
122416	09:54:03	1	1	4.0.9.0	2	1	picblk	4	100	0	0	0	0	0	lbuttondown	0	6896	0	1	same.jpg	25	25	2	1	same.jpg	75	25	2	1	same.jpg	25	75	2	1	pic4.jpg	75	75	2
122416	09:54:03	1	1	4.0.9.0	2	2	picblk	10	100	0	0	0	0	0	lbuttondown	1	4062	0	1	same.jpg	25	25	6	1	pic10.jpg	75	25	6	1	same.jpg	25	75	6	1	same.jpg	75	75	6
122416	09:54:03	1	1	4.0.9.0	2	3	picblk	2	100	0	0	0	0	0	lbuttondown	1	1172	0	1	same.jpg	25	25	3	1	pic2.jpg	75	25	3	1	same.jpg	25	75	3	1	same.jpg	75	75	3
122416	09:54:03	1	1	4.0.9.0	2	4	picblk	7	100	0	0	0	0	0	lbuttondown	0	1048	0	1	same.jpg	25	25	3	1	same.jpg	75	25	3	1	pic7.jpg	25	75	3	1	same.jpg	75	75	3
122416	09:54:03	1	1	4.0.9.0	2	5	picblk	14	100	0	0	0	0	0	lbuttondown	1	1160	0	1	same.jpg	25	25	3	1	pic14.jpg	75	25	3	1	same.jpg	25	75	3	1	same.jpg	75	75	3
122416	09:54:03	1	1	4.0.9.0	2	6	picblk	11	100	0	0	0	0	0	lbuttondown	0	1504	0	1	same.jpg	25	25	3	1	same.jpg	75	25	3	1	pic11.jpg	25	75	3	1	same.jpg	75	75	3
122416	09:54:03	1	1	4.0.9.0	2	7	picblk	5	0	0	0	0	0	0	lbuttondown	0	2884	0	1	pic5.jpg	25	25	3	1	same.jpg	75	25	3	1	same.jpg	25	75	3	1	same.jpg	75	75	3
122416	09:54:03	1	1	4.0.9.0	2	8	picblk	13	0	0	0	0	0	0	lbuttondown	1	3468	0	1	pic13.jpg	25	25	3	1	same.jpg	75	25	3	1	same.jpg	25	75	3	1	same.jpg	75	75	3
122416	09:54:03	1	1	4.0.9.0	2	9	picblk	10	100	0	0	0	0	0	lbuttondown	0	1072	0	1	same.jpg	25	25	4	1	pic10.jpg	75	25	4	1	same.jpg	25	75	4	1	same.jpg	75	75	4
122416	09:54:03	1	1	4.0.9.0	2	10	picblk	9	0	0	0	0	0	0	lbuttondown	1	595	0	1	pic9.jpg	25	25	3	1	same.jpg	75	25	3	1	same.jpg	25	75	3	1	same.jpg	75	75	3
122416	09:54:03	1	1	4.0.9.0	2	11	picblk	5	0	0	0	0	0	0	lbuttondown	1	455	0	1	pic5.jpg	25	25	3	1	same.jpg	75	25	3	1	same.jpg	25	75	3	1	same.jpg	75	75	3
122416	09:54:03	1	1	4.0.9.0	2	12	picblk	14	100	0	0	0	0	0	lbuttondown	0	465	0	1	same.jpg	25	25	3	1	pic14.jpg	75	25	3	1	same.jpg	25	75	3	1	same.jpg	75	75	3
122416	09:54:03	1	1	4.0.9.0	2	13	picblk	8	100	0	0	0	0	0	lbuttondown	0	413	0	1	same.jpg	25	25	2	1	same.jpg	75	25	2	1	same.jpg	25	75	2	1	pic8.jpg	75	75	2
122416	09:54:03	1	1	4.0.9.0	2	14	picblk	4	100	0	0	0	0	0	lbuttondown	0	386	0	1	same.jpg	25	25	3	1	same.jpg	75	25	3	1	same.jpg	25	75	3	1	pic4.jpg	75	75	3
122416	09:54:03	1	1	4.0.9.0	2	15	picblk	13	0	0	0	0	0	0	lbuttondown	1	468	0	1	pic13.jpg	25	25	3	1	same.jpg	75	25	3	1	same.jpg	25	75	3	1	same.jpg	75	75	3
122416	09:54:03	1	1	4.0.9.0	2	16	picblk	7	100	0	0	0	0	0	lbuttondown	0	423	0	1	same.jpg	25	25	3	1	same.jpg	75	25	3	1	pic7.jpg	25	75	3	1	same.jpg	75	75	3
